## w(eV)         sigma(Sm^-1)     kappa(W(mK)^-1)        L12/e(Am^-1)      L22/e^2(Wm^-1)
    0.01              216805             255.006        -5.42664e+06         1.59986e+08
    0.03              216804             255.004        -5.42661e+06         1.59986e+08
    0.05              216802             255.002        -5.42656e+06         1.59984e+08
    0.07              216799             254.998        -5.42649e+06         1.59982e+08
    0.09              216795             254.994        -5.42638e+06         1.59979e+08
    0.11              216790             254.987        -5.42626e+06         1.59975e+08
    0.13              216784              254.98         -5.4261e+06         1.59971e+08
    0.15              216777             254.972        -5.42593e+06         1.59965e+08
    0.17              216769             254.962        -5.42572e+06         1.59959e+08
    0.19              216760             254.951        -5.42549e+06         1.59952e+08
    0.21              216749             254.939        -5.42524e+06         1.59945e+08
    0.23              216738             254.926        -5.42496e+06         1.59936e+08
    0.25              216726             254.911        -5.42465e+06         1.59927e+08
    0.27              216713             254.895        -5.42432e+06         1.59917e+08
    0.29              216699             254.878        -5.42397e+06         1.59907e+08
    0.31              216684              254.86        -5.42359e+06         1.59895e+08
    0.33              216668             254.841        -5.42318e+06         1.59883e+08
    0.35              216651              254.82        -5.42275e+06          1.5987e+08
    0.37              216633             254.798        -5.42229e+06         1.59857e+08
    0.39              216614             254.775         -5.4218e+06         1.59842e+08
    0.41              216594             254.751         -5.4213e+06         1.59827e+08
    0.43              216573             254.726        -5.42076e+06         1.59811e+08
    0.45              216551             254.699         -5.4202e+06         1.59795e+08
    0.47              216528             254.671        -5.41962e+06         1.59777e+08
    0.49              216503             254.642        -5.41901e+06         1.59759e+08
    0.51              216478             254.612        -5.41837e+06          1.5974e+08
    0.53              216452              254.58        -5.41771e+06          1.5972e+08
    0.55              216425             254.548        -5.41703e+06           1.597e+08
    0.57              216397             254.514        -5.41632e+06         1.59679e+08
    0.59              216368             254.479        -5.41558e+06         1.59657e+08
    0.61              216338             254.442        -5.41482e+06         1.59634e+08
    0.63              216307             254.405        -5.41403e+06          1.5961e+08
    0.65              216275             254.366        -5.41322e+06         1.59586e+08
    0.67              216242             254.326        -5.41238e+06         1.59561e+08
    0.69              216208             254.285        -5.41152e+06         1.59535e+08
    0.71              216172             254.243        -5.41063e+06         1.59509e+08
    0.73              216136             254.199        -5.40972e+06         1.59482e+08
    0.75              216099             254.155        -5.40878e+06         1.59454e+08
    0.77              216061             254.109        -5.40781e+06         1.59425e+08
    0.79              216022             254.062        -5.40683e+06         1.59395e+08
    0.81              215982             254.013        -5.40581e+06         1.59365e+08
    0.83              215941             253.964        -5.40477e+06         1.59334e+08
    0.85              215899             253.913        -5.40371e+06         1.59302e+08
    0.87              215856             253.861        -5.40262e+06          1.5927e+08
    0.89              215812             253.808         -5.4015e+06         1.59237e+08
    0.91              215767             253.754        -5.40036e+06         1.59203e+08
    0.93              215721             253.699         -5.3992e+06         1.59168e+08
    0.95              215674             253.642        -5.39801e+06         1.59133e+08
    0.97              215626             253.584         -5.3968e+06         1.59096e+08
    0.99              215577             253.525        -5.39556e+06         1.59059e+08
    1.01              215527             253.465        -5.39429e+06         1.59022e+08
    1.03              215476             253.403          -5.393e+06         1.58983e+08
    1.05              215424             253.341        -5.39169e+06         1.58944e+08
    1.07              215372             253.277        -5.39035e+06         1.58904e+08
    1.09              215318             253.212        -5.38898e+06         1.58863e+08
    1.11              215263             253.146         -5.3876e+06         1.58822e+08
    1.13              215207             253.079        -5.38618e+06          1.5878e+08
    1.15              215150              253.01        -5.38474e+06         1.58737e+08
    1.17              215092              252.94        -5.38328e+06         1.58693e+08
    1.19              215034              252.87        -5.38179e+06         1.58649e+08
    1.21              214974             252.798        -5.38028e+06         1.58604e+08
    1.23              214913             252.724        -5.37874e+06         1.58558e+08
    1.25              214851              252.65        -5.37718e+06         1.58511e+08
    1.27              214789             252.574        -5.37559e+06         1.58464e+08
    1.29              214725             252.498        -5.37398e+06         1.58416e+08
    1.31              214660              252.42        -5.37234e+06         1.58367e+08
    1.33              214595             252.341        -5.37068e+06         1.58317e+08
    1.35              214528              252.26        -5.36899e+06         1.58267e+08
    1.37              214461             252.179        -5.36728e+06         1.58216e+08
    1.39              214392             252.096        -5.36555e+06         1.58164e+08
    1.41              214323             252.013        -5.36379e+06         1.58112e+08
    1.43              214252             251.928          -5.362e+06         1.58059e+08
    1.45              214181             251.842         -5.3602e+06         1.58005e+08
    1.47              214108             251.755        -5.35836e+06          1.5795e+08
    1.49              214035             251.666        -5.35651e+06         1.57895e+08
    1.51              213961             251.577        -5.35462e+06         1.57838e+08
    1.53              213885             251.486        -5.35272e+06         1.57782e+08
    1.55              213809             251.394        -5.35079e+06         1.57724e+08
    1.57              213732             251.301        -5.34883e+06         1.57666e+08
    1.59              213654             251.207        -5.34685e+06         1.57607e+08
    1.61              213575             251.112        -5.34485e+06         1.57547e+08
    1.63              213495             251.015        -5.34282e+06         1.57486e+08
    1.65              213414             250.917        -5.34077e+06         1.57425e+08
    1.67              213332             250.819         -5.3387e+06         1.57363e+08
    1.69              213249             250.719         -5.3366e+06         1.57301e+08
    1.71              213165             250.618        -5.33447e+06         1.57237e+08
    1.73              213080             250.516        -5.33232e+06         1.57173e+08
    1.75              212994             250.412        -5.33015e+06         1.57109e+08
    1.77              212907             250.308        -5.32796e+06         1.57043e+08
    1.79              212820             250.202        -5.32574e+06         1.56977e+08
    1.81              212731             250.096        -5.32349e+06          1.5691e+08
    1.83              212642             249.988        -5.32122e+06         1.56842e+08
    1.85              212551             249.879        -5.31893e+06         1.56774e+08
    1.87              212460             249.769        -5.31662e+06         1.56705e+08
    1.89              212367             249.657        -5.31428e+06         1.56635e+08
    1.91              212274             249.545        -5.31191e+06         1.56565e+08
    1.93              212180             249.432        -5.30953e+06         1.56493e+08
    1.95              212085             249.317        -5.30712e+06         1.56422e+08
    1.97              211988             249.201        -5.30468e+06         1.56349e+08
    1.99              211891             249.084        -5.30223e+06         1.56276e+08
    2.01              211793             248.966        -5.29974e+06         1.56202e+08
    2.03              211695             248.847        -5.29724e+06         1.56127e+08
    2.05              211595             248.727        -5.29471e+06         1.56052e+08
    2.07              211494             248.606        -5.29216e+06         1.55975e+08
    2.09              211392             248.484        -5.28959e+06         1.55899e+08
    2.11              211290              248.36        -5.28699e+06         1.55821e+08
    2.13              211186             248.235        -5.28437e+06         1.55743e+08
    2.15              211082              248.11        -5.28172e+06         1.55664e+08
    2.17              210976             247.983        -5.27905e+06         1.55585e+08
    2.19              210870             247.855        -5.27636e+06         1.55504e+08
    2.21              210763             247.726        -5.27365e+06         1.55423e+08
    2.23              210655             247.596        -5.27091e+06         1.55342e+08
    2.25              210546             247.465        -5.26815e+06         1.55259e+08
    2.27              210436             247.333        -5.26536e+06         1.55176e+08
    2.29              210325             247.199        -5.26256e+06         1.55093e+08
    2.31              210213             247.065        -5.25973e+06         1.55008e+08
    2.33              210101             246.929        -5.25687e+06         1.54923e+08
    2.35              209987             246.793          -5.254e+06         1.54837e+08
    2.37              209873             246.655         -5.2511e+06         1.54751e+08
    2.39              209757             246.516        -5.24818e+06         1.54664e+08
    2.41              209641             246.376        -5.24523e+06         1.54576e+08
    2.43              209524             246.236        -5.24227e+06         1.54488e+08
    2.45              209406             246.094        -5.23928e+06         1.54398e+08
    2.47              209287             245.951        -5.23627e+06         1.54309e+08
    2.49              209167             245.806        -5.23323e+06         1.54218e+08
    2.51              209046             245.661        -5.23017e+06         1.54127e+08
    2.53              208925             245.515        -5.22709e+06         1.54035e+08
    2.55              208802             245.368        -5.22399e+06         1.53943e+08
    2.57              208679              245.22        -5.22087e+06         1.53849e+08
    2.59              208555              245.07        -5.21772e+06         1.53756e+08
    2.61              208430              244.92        -5.21455e+06         1.53661e+08
    2.63              208304             244.768        -5.21136e+06         1.53566e+08
    2.65              208177             244.616        -5.20815e+06          1.5347e+08
    2.67              208049             244.462        -5.20491e+06         1.53374e+08
    2.69              207920             244.308        -5.20165e+06         1.53276e+08
    2.71              207791             244.152        -5.19837e+06         1.53179e+08
    2.73              207660             243.995        -5.19507e+06          1.5308e+08
    2.75              207529             243.838        -5.19175e+06         1.52981e+08
    2.77              207397             243.679         -5.1884e+06         1.52881e+08
    2.79              207264             243.519        -5.18503e+06         1.52781e+08
    2.81              207130             243.358        -5.18164e+06          1.5268e+08
    2.83              206996             243.197        -5.17823e+06         1.52578e+08
    2.85              206860             243.034         -5.1748e+06         1.52476e+08
    2.87              206724              242.87        -5.17135e+06         1.52373e+08
    2.89              206587             242.705        -5.16787e+06         1.52269e+08
    2.91              206448             242.539        -5.16437e+06         1.52165e+08
    2.93              206310             242.372        -5.16085e+06          1.5206e+08
    2.95              206170             242.205        -5.15731e+06         1.51954e+08
    2.97              206029             242.036        -5.15375e+06         1.51848e+08
    2.99              205888             241.866        -5.15017e+06         1.51741e+08
    3.01              205745             241.695        -5.14656e+06         1.51634e+08
    3.03              205602             241.523        -5.14294e+06         1.51526e+08
    3.05              205458              241.35        -5.13929e+06         1.51417e+08
    3.07              205314             241.176        -5.13562e+06         1.51308e+08
    3.09              205168             241.001        -5.13193e+06         1.51198e+08
    3.11              205021             240.826        -5.12822e+06         1.51087e+08
    3.13              204874             240.649        -5.12449e+06         1.50976e+08
    3.15              204726             240.471        -5.12074e+06         1.50864e+08
    3.17              204577             240.292        -5.11697e+06         1.50751e+08
    3.19              204427             240.113        -5.11318e+06         1.50638e+08
    3.21              204277             239.932        -5.10936e+06         1.50524e+08
    3.23              204125              239.75        -5.10553e+06          1.5041e+08
    3.25              203973             239.568        -5.10167e+06         1.50295e+08
    3.27              203820             239.384        -5.09779e+06          1.5018e+08
    3.29              203666               239.2         -5.0939e+06         1.50063e+08
    3.31              203512             239.014        -5.08998e+06         1.49947e+08
    3.33              203356             238.828        -5.08604e+06         1.49829e+08
    3.35              203200              238.64        -5.08209e+06         1.49711e+08
    3.37              203043             238.452        -5.07811e+06         1.49593e+08
    3.39              202885             238.263        -5.07411e+06         1.49473e+08
    3.41              202727             238.072        -5.07009e+06         1.49354e+08
    3.43              202567             237.881        -5.06605e+06         1.49233e+08
    3.45              202407             237.689        -5.06199e+06         1.49112e+08
    3.47              202246             237.496        -5.05792e+06         1.48991e+08
    3.49              202084             237.302        -5.05382e+06         1.48868e+08
    3.51              201922             237.107         -5.0497e+06         1.48746e+08
    3.53              201758             236.911        -5.04556e+06         1.48622e+08
    3.55              201594             236.715         -5.0414e+06         1.48498e+08
    3.57              201429             236.517        -5.03723e+06         1.48374e+08
    3.59              201264             236.318        -5.03303e+06         1.48249e+08
    3.61              201097             236.119        -5.02881e+06         1.48123e+08
    3.63              200930             235.919        -5.02458e+06         1.47997e+08
    3.65              200762             235.717        -5.02032e+06          1.4787e+08
    3.67              200593             235.515        -5.01605e+06         1.47742e+08
    3.69              200424             235.312        -5.01175e+06         1.47614e+08
    3.71              200254             235.108        -5.00744e+06         1.47486e+08
    3.73              200083             234.903        -5.00311e+06         1.47357e+08
    3.75              199911             234.698        -4.99876e+06         1.47227e+08
    3.77              199738             234.491        -4.99439e+06         1.47097e+08
    3.79              199565             234.284           -4.99e+06         1.46966e+08
    3.81              199391             234.075        -4.98559e+06         1.46834e+08
    3.83              199216             233.866        -4.98116e+06         1.46702e+08
    3.85              199041             233.656        -4.97671e+06          1.4657e+08
    3.87              198865             233.445        -4.97225e+06         1.46437e+08
    3.89              198688             233.233        -4.96777e+06         1.46303e+08
    3.91              198510              233.02        -4.96326e+06         1.46169e+08
    3.93              198332             232.807        -4.95874e+06         1.46034e+08
    3.95              198153             232.592        -4.95421e+06         1.45899e+08
    3.97              197973             232.377        -4.94965e+06         1.45763e+08
    3.99              197792             232.161        -4.94507e+06         1.45627e+08
    4.01              197611             231.944        -4.94048e+06          1.4549e+08
    4.03              197429             231.726        -4.93587e+06         1.45352e+08
    4.05              197246             231.508        -4.93124e+06         1.45214e+08
    4.07              197063             231.288        -4.92659e+06         1.45076e+08
    4.09              196879             231.068        -4.92192e+06         1.44937e+08
    4.11              196694             230.847        -4.91724e+06         1.44797e+08
    4.13              196508             230.625        -4.91254e+06         1.44657e+08
    4.15              196322             230.402        -4.90782e+06         1.44516e+08
    4.17              196135             230.178        -4.90308e+06         1.44375e+08
    4.19              195947             229.954        -4.89832e+06         1.44233e+08
    4.21              195759             229.729        -4.89355e+06         1.44091e+08
    4.23              195570             229.503        -4.88876e+06         1.43948e+08
    4.25              195380             229.276        -4.88395e+06         1.43805e+08
    4.27              195190             229.048        -4.87913e+06         1.43661e+08
    4.29              194999              228.82        -4.87429e+06         1.43517e+08
    4.31              194807             228.591        -4.86943e+06         1.43372e+08
    4.33              194615             228.361        -4.86455e+06         1.43227e+08
    4.35              194421              228.13        -4.85966e+06         1.43081e+08
    4.37              194228             227.898        -4.85475e+06         1.42935e+08
    4.39              194033             227.666        -4.84982e+06         1.42788e+08
    4.41              193838             227.433        -4.84488e+06          1.4264e+08
    4.43              193642             227.199        -4.83992e+06         1.42493e+08
    4.45              193446             226.964        -4.83494e+06         1.42344e+08
    4.47              193249             226.729        -4.82994e+06         1.42195e+08
    4.49              193051             226.493        -4.82493e+06         1.42046e+08
    4.51              192853             226.256        -4.81991e+06         1.41896e+08
    4.53              192654             226.018        -4.81486e+06         1.41746e+08
    4.55              192454              225.78         -4.8098e+06         1.41595e+08
    4.57              192254             225.541        -4.80473e+06         1.41444e+08
    4.59              192053             225.301        -4.79963e+06         1.41292e+08
    4.61              191851              225.06        -4.79453e+06          1.4114e+08
    4.63              191649             224.819         -4.7894e+06         1.40987e+08
    4.65              191446             224.577        -4.78426e+06         1.40834e+08
    4.67              191243             224.334         -4.7791e+06          1.4068e+08
    4.69              191039              224.09        -4.77393e+06         1.40526e+08
    4.71              190834             223.846        -4.76874e+06         1.40371e+08
    4.73              190629             223.601        -4.76354e+06         1.40216e+08
    4.75              190423             223.355        -4.75832e+06         1.40061e+08
    4.77              190216             223.109        -4.75308e+06         1.39905e+08
    4.79              190009             222.862        -4.74783e+06         1.39748e+08
    4.81              189801             222.614        -4.74257e+06         1.39592e+08
    4.83              189593             222.366        -4.73729e+06         1.39434e+08
    4.85              189384             222.116        -4.73199e+06         1.39276e+08
    4.87              189174             221.866        -4.72668e+06         1.39118e+08
    4.89              188964             221.616        -4.72135e+06         1.38959e+08
    4.91              188753             221.365        -4.71601e+06           1.388e+08
    4.93              188542             221.113        -4.71065e+06         1.38641e+08
    4.95              188330              220.86        -4.70528e+06         1.38481e+08
    4.97              188117             220.607         -4.6999e+06          1.3832e+08
    4.99              187904             220.353         -4.6945e+06         1.38159e+08
    5.01              187691             220.098        -4.68908e+06         1.37998e+08
    5.03              187477             219.843        -4.68365e+06         1.37836e+08
    5.05              187262             219.587        -4.67821e+06         1.37674e+08
    5.07              187046             219.331        -4.67275e+06         1.37511e+08
    5.09              186830             219.073        -4.66727e+06         1.37348e+08
    5.11              186614             218.815        -4.66179e+06         1.37185e+08
    5.13              186397             218.557        -4.65629e+06         1.37021e+08
    5.15              186179             218.298        -4.65077e+06         1.36856e+08
    5.17              185961             218.038        -4.64524e+06         1.36692e+08
    5.19              185742             217.778         -4.6397e+06         1.36527e+08
    5.21              185523             217.517        -4.63414e+06         1.36361e+08
    5.23              185303             217.255        -4.62857e+06         1.36195e+08
    5.25              185083             216.993        -4.62298e+06         1.36029e+08
    5.27              184862              216.73        -4.61739e+06         1.35862e+08
    5.29              184641             216.466        -4.61177e+06         1.35695e+08
    5.31              184419             216.202        -4.60615e+06         1.35527e+08
    5.33              184196             215.938        -4.60051e+06         1.35359e+08
    5.35              183973             215.672        -4.59486e+06         1.35191e+08
    5.37              183750             215.407        -4.58919e+06         1.35022e+08
    5.39              183526              215.14        -4.58352e+06         1.34853e+08
    5.41              183301             214.873        -4.57782e+06         1.34683e+08
    5.43              183076             214.605        -4.57212e+06         1.34513e+08
    5.45              182851             214.337         -4.5664e+06         1.34343e+08
    5.47              182625             214.068        -4.56067e+06         1.34173e+08
    5.49              182398             213.799        -4.55493e+06         1.34001e+08
    5.51              182171             213.529        -4.54918e+06          1.3383e+08
    5.53              181944             213.259        -4.54341e+06         1.33658e+08
    5.55              181716             212.988        -4.53763e+06         1.33486e+08
    5.57              181487             212.716        -4.53183e+06         1.33314e+08
    5.59              181258             212.444        -4.52603e+06         1.33141e+08
    5.61              181029             212.171        -4.52021e+06         1.32967e+08
    5.63              180799             211.898        -4.51438e+06         1.32794e+08
    5.65              180568             211.624        -4.50854e+06          1.3262e+08
    5.67              180337              211.35        -4.50269e+06         1.32445e+08
    5.69              180106             211.075        -4.49682e+06         1.32271e+08
    5.71              179874               210.8        -4.49095e+06         1.32096e+08
    5.73              179642             210.524        -4.48506e+06          1.3192e+08
    5.75              179409             210.248        -4.47916e+06         1.31745e+08
    5.77              179176             209.971        -4.47325e+06         1.31569e+08
    5.79              178942             209.694        -4.46732e+06         1.31392e+08
    5.81              178708             209.416        -4.46139e+06         1.31215e+08
    5.83              178474             209.137        -4.45544e+06         1.31038e+08
    5.85              178239             208.858        -4.44948e+06         1.30861e+08
    5.87              178003             208.579        -4.44351e+06         1.30683e+08
    5.89              177767             208.299        -4.43753e+06         1.30505e+08
    5.91              177531             208.019        -4.43154e+06         1.30327e+08
    5.93              177294             207.738        -4.42554e+06         1.30148e+08
    5.95              177057             207.457        -4.41953e+06         1.29969e+08
    5.97              176819             207.175        -4.41351e+06          1.2979e+08
    5.99              176581             206.892        -4.40747e+06          1.2961e+08
    6.01              176343              206.61        -4.40143e+06          1.2943e+08
    6.03              176104             206.327        -4.39537e+06          1.2925e+08
    6.05              175865             206.043        -4.38931e+06         1.29069e+08
    6.07              175625             205.759        -4.38323e+06         1.28888e+08
    6.09              175385             205.474        -4.37715e+06         1.28707e+08
    6.11              175145             205.189        -4.37105e+06         1.28525e+08
    6.13              174904             204.904        -4.36494e+06         1.28344e+08
    6.15              174663             204.618        -4.35883e+06         1.28162e+08
    6.17              174421             204.332         -4.3527e+06         1.27979e+08
    6.19              174179             204.045        -4.34656e+06         1.27796e+08
    6.21              173937             203.758        -4.34042e+06         1.27613e+08
    6.23              173694              203.47        -4.33426e+06          1.2743e+08
    6.25              173451             203.182         -4.3281e+06         1.27247e+08
    6.27              173207             202.894        -4.32192e+06         1.27063e+08
    6.29              172963             202.605        -4.31574e+06         1.26879e+08
    6.31              172719             202.316        -4.30955e+06         1.26694e+08
    6.33              172474             202.026        -4.30334e+06          1.2651e+08
    6.35              172229             201.736        -4.29713e+06         1.26325e+08
    6.37              171984             201.446        -4.29091e+06          1.2614e+08
    6.39              171738             201.155        -4.28468e+06         1.25954e+08
    6.41              171492             200.864        -4.27844e+06         1.25768e+08
    6.43              171246             200.572         -4.2722e+06         1.25583e+08
    6.45              170999              200.28        -4.26594e+06         1.25396e+08
    6.47              170752             199.988        -4.25968e+06          1.2521e+08
    6.49              170504             199.695         -4.2534e+06         1.25023e+08
    6.51              170256             199.402        -4.24712e+06         1.24836e+08
    6.53              170008             199.109        -4.24083e+06         1.24649e+08
    6.55              169760             198.815        -4.23453e+06         1.24461e+08
    6.57              169511             198.521        -4.22822e+06         1.24274e+08
    6.59              169262             198.226        -4.22191e+06         1.24086e+08
    6.61              169013             197.932        -4.21559e+06         1.23898e+08
    6.63              168763             197.636        -4.20926e+06         1.23709e+08
    6.65              168513             197.341        -4.20292e+06          1.2352e+08
    6.67              168263             197.045        -4.19657e+06         1.23332e+08
    6.69              168012             196.749        -4.19021e+06         1.23142e+08
    6.71              167761             196.453        -4.18385e+06         1.22953e+08
    6.73              167510             196.156        -4.17748e+06         1.22764e+08
    6.75              167258             195.859        -4.17111e+06         1.22574e+08
    6.77              167006             195.561        -4.16472e+06         1.22384e+08
    6.79              166754             195.264        -4.15833e+06         1.22194e+08
    6.81              166502             194.966        -4.15193e+06         1.22003e+08
    6.83              166249             194.667        -4.14552e+06         1.21813e+08
    6.85              165996             194.369        -4.13911e+06         1.21622e+08
    6.87              165743              194.07        -4.13269e+06         1.21431e+08
    6.89              165489             193.771        -4.12626e+06         1.21239e+08
    6.91              165236             193.471        -4.11983e+06         1.21048e+08
    6.93              164982             193.171        -4.11339e+06         1.20856e+08
    6.95              164727             192.871        -4.10694e+06         1.20664e+08
    6.97              164473             192.571        -4.10049e+06         1.20472e+08
    6.99              164218              192.27        -4.09403e+06          1.2028e+08
    7.01              163963              191.97        -4.08756e+06         1.20088e+08
    7.03              163708             191.668        -4.08109e+06         1.19895e+08
    7.05              163452             191.367        -4.07461e+06         1.19703e+08
    7.07              163196             191.066        -4.06812e+06          1.1951e+08
    7.09              162940             190.764        -4.06163e+06         1.19316e+08
    7.11              162684             190.462        -4.05514e+06         1.19123e+08
    7.13              162427             190.159        -4.04863e+06          1.1893e+08
    7.15              162171             189.857        -4.04212e+06         1.18736e+08
    7.17              161914             189.554        -4.03561e+06         1.18542e+08
    7.19              161656             189.251        -4.02909e+06         1.18348e+08
    7.21              161399             188.948        -4.02256e+06         1.18154e+08
    7.23              161141             188.644        -4.01603e+06          1.1796e+08
    7.25              160884              188.34         -4.0095e+06         1.17766e+08
    7.27              160626             188.037        -4.00296e+06         1.17571e+08
    7.29              160367             187.732        -3.99641e+06         1.17376e+08
    7.31              160109             187.428        -3.98986e+06         1.17181e+08
    7.33              159850             187.124         -3.9833e+06         1.16986e+08
    7.35              159591             186.819        -3.97674e+06         1.16791e+08
    7.37              159332             186.514        -3.97017e+06         1.16596e+08
    7.39              159073             186.209         -3.9636e+06           1.164e+08
    7.41              158814             185.904        -3.95702e+06         1.16205e+08
    7.43              158554             185.598        -3.95044e+06         1.16009e+08
    7.45              158294             185.293        -3.94386e+06         1.15813e+08
    7.47              158034             184.987        -3.93727e+06         1.15617e+08
    7.49              157774             184.681        -3.93067e+06         1.15421e+08
    7.51              157514             184.375        -3.92407e+06         1.15225e+08
    7.53              157254             184.068        -3.91747e+06         1.15029e+08
    7.55              156993             183.762        -3.91086e+06         1.14832e+08
    7.57              156732             183.455        -3.90425e+06         1.14636e+08
    7.59              156471             183.149        -3.89764e+06         1.14439e+08
    7.61              156210             182.842        -3.89102e+06         1.14242e+08
    7.63              155949             182.535         -3.8844e+06         1.14045e+08
    7.65              155687             182.228        -3.87777e+06         1.13848e+08
    7.67              155426              181.92        -3.87114e+06         1.13651e+08
    7.69              155164             181.613        -3.86451e+06         1.13454e+08
    7.71              154902             181.305        -3.85787e+06         1.13257e+08
    7.73              154641             180.998        -3.85123e+06         1.13059e+08
    7.75              154378              180.69        -3.84459e+06         1.12862e+08
    7.77              154116             180.382        -3.83794e+06         1.12664e+08
    7.79              153854             180.074        -3.83129e+06         1.12466e+08
    7.81              153591             179.766        -3.82464e+06         1.12269e+08
    7.83              153329             179.457        -3.81799e+06         1.12071e+08
    7.85              153066             179.149        -3.81133e+06         1.11873e+08
    7.87              152803             178.841        -3.80467e+06         1.11675e+08
    7.89              152541             178.532          -3.798e+06         1.11477e+08
    7.91              152277             178.224        -3.79134e+06         1.11279e+08
    7.93              152014             177.915        -3.78467e+06          1.1108e+08
    7.95              151751             177.606          -3.778e+06         1.10882e+08
    7.97              151488             177.297        -3.77132e+06         1.10684e+08
    7.99              151224             176.988        -3.76465e+06         1.10485e+08
    8.01              150961             176.679        -3.75797e+06         1.10287e+08
    8.03              150697              176.37        -3.75129e+06         1.10088e+08
    8.05              150434             176.061        -3.74461e+06          1.0989e+08
    8.07              150170             175.752        -3.73792e+06         1.09691e+08
    8.09              149906             175.443        -3.73124e+06         1.09492e+08
    8.11              149642             175.134        -3.72455e+06         1.09294e+08
    8.13              149378             174.824        -3.71786e+06         1.09095e+08
    8.15              149114             174.515        -3.71117e+06         1.08896e+08
    8.17              148850             174.205        -3.70447e+06         1.08697e+08
    8.19              148586             173.896        -3.69778e+06         1.08498e+08
    8.21              148322             173.587        -3.69108e+06         1.08299e+08
    8.23              148058             173.277        -3.68439e+06           1.081e+08
    8.25              147793             172.967        -3.67769e+06         1.07901e+08
    8.27              147529             172.658        -3.67099e+06         1.07702e+08
    8.29              147265             172.348        -3.66429e+06         1.07503e+08
    8.31              147000             172.039        -3.65759e+06         1.07304e+08
    8.33              146736             171.729        -3.65089e+06         1.07105e+08
    8.35              146471              171.42        -3.64418e+06         1.06906e+08
    8.37              146207              171.11        -3.63748e+06         1.06707e+08
    8.39              145942               170.8        -3.63077e+06         1.06508e+08
    8.41              145677             170.491        -3.62407e+06         1.06308e+08
    8.43              145413             170.181        -3.61736e+06         1.06109e+08
    8.45              145148             169.872        -3.61066e+06          1.0591e+08
    8.47              144883             169.562        -3.60395e+06         1.05711e+08
    8.49              144619             169.253        -3.59724e+06         1.05512e+08
    8.51              144354             168.943        -3.59054e+06         1.05312e+08
    8.53              144089             168.634        -3.58383e+06         1.05113e+08
    8.55              143825             168.324        -3.57712e+06         1.04914e+08
    8.57              143560             168.015        -3.57042e+06         1.04715e+08
    8.59              143295             167.705        -3.56371e+06         1.04516e+08
    8.61              143030             167.396          -3.557e+06         1.04316e+08
    8.63              142766             167.087         -3.5503e+06         1.04117e+08
    8.65              142501             166.777        -3.54359e+06         1.03918e+08
    8.67              142236             166.468        -3.53688e+06         1.03719e+08
    8.69              141972             166.159        -3.53018e+06          1.0352e+08
    8.71              141707              165.85        -3.52347e+06         1.03321e+08
    8.73              141442             165.541        -3.51677e+06         1.03122e+08
    8.75              141178             165.232        -3.51007e+06         1.02923e+08
    8.77              140913             164.923        -3.50336e+06         1.02724e+08
    8.79              140648             164.614        -3.49666e+06         1.02525e+08
    8.81              140384             164.305        -3.48996e+06         1.02326e+08
    8.83              140119             163.997        -3.48326e+06         1.02127e+08
    8.85              139855             163.688        -3.47656e+06         1.01928e+08
    8.87              139591              163.38        -3.46987e+06         1.01729e+08
    8.89              139326             163.071        -3.46317e+06         1.01531e+08
    8.91              139062             162.763        -3.45648e+06         1.01332e+08
    8.93              138798             162.455        -3.44978e+06         1.01133e+08
    8.95              138533             162.146        -3.44309e+06         1.00935e+08
    8.97              138269             161.838         -3.4364e+06         1.00736e+08
    8.99              138005             161.531        -3.42971e+06         1.00538e+08
    9.01              137741             161.223        -3.42302e+06         1.00339e+08
    9.03              137477             160.915        -3.41634e+06         1.00141e+08
    9.05              137213             160.607        -3.40966e+06         9.99424e+07
    9.07              136949               160.3        -3.40298e+06         9.97441e+07
    9.09              136686             159.993         -3.3963e+06         9.95459e+07
    9.11              136422             159.685        -3.38962e+06         9.93478e+07
    9.13              136158             159.378        -3.38294e+06         9.91497e+07
    9.15              135895             159.071        -3.37627e+06         9.89517e+07
    9.17              135631             158.764         -3.3696e+06         9.87538e+07
    9.19              135368             158.458        -3.36293e+06          9.8556e+07
    9.21              135105             158.151        -3.35627e+06         9.83582e+07
    9.23              134842             157.845         -3.3496e+06         9.81606e+07
    9.25              134579             157.538        -3.34294e+06          9.7963e+07
    9.27              134316             157.232        -3.33628e+06         9.77655e+07
    9.29              134053             156.926        -3.32963e+06          9.7568e+07
    9.31              133790              156.62        -3.32298e+06         9.73707e+07
    9.33              133527             156.315        -3.31633e+06         9.71735e+07
    9.35              133265             156.009        -3.30968e+06         9.69763e+07
    9.37              133002             155.704        -3.30304e+06         9.67793e+07
    9.39              132740             155.399         -3.2964e+06         9.65824e+07
    9.41              132478             155.094        -3.28976e+06         9.63855e+07
    9.43              132216             154.789        -3.28313e+06         9.61888e+07
    9.45              131954             154.484         -3.2765e+06         9.59921e+07
    9.47              131692              154.18        -3.26987e+06         9.57956e+07
    9.49              131430             153.876        -3.26324e+06         9.55992e+07
    9.51              131169             153.572        -3.25662e+06         9.54029e+07
    9.53              130907             153.268        -3.25001e+06         9.52067e+07
    9.55              130646             152.964        -3.24339e+06         9.50106e+07
    9.57              130385             152.661        -3.23678e+06         9.48147e+07
    9.59              130124             152.357        -3.23018e+06         9.46188e+07
    9.61              129863             152.054        -3.22358e+06         9.44231e+07
    9.63              129602             151.751        -3.21698e+06         9.42275e+07
    9.65              129341             151.449        -3.21038e+06         9.40321e+07
    9.67              129081             151.146        -3.20379e+06         9.38367e+07
    9.69              128821             150.844        -3.19721e+06         9.36415e+07
    9.71              128561             150.542        -3.19063e+06         9.34464e+07
    9.73              128301              150.24        -3.18405e+06         9.32515e+07
    9.75              128041             149.939        -3.17748e+06         9.30567e+07
    9.77              127781             149.637        -3.17091e+06          9.2862e+07
    9.79              127522             149.336        -3.16434e+06         9.26675e+07
    9.81              127262             149.035        -3.15778e+06         9.24731e+07
    9.83              127003             148.734        -3.15123e+06         9.22789e+07
    9.85              126744             148.434        -3.14468e+06         9.20848e+07
    9.87              126486             148.134        -3.13813e+06         9.18908e+07
    9.89              126227             147.834        -3.13159e+06         9.16971e+07
    9.91              125969             147.534        -3.12506e+06         9.15034e+07
    9.93              125710             147.235        -3.11853e+06         9.13099e+07
    9.95              125452             146.935          -3.112e+06         9.11166e+07
    9.97              125194             146.637        -3.10548e+06         9.09234e+07
    9.99              124937             146.338        -3.09896e+06         9.07304e+07
   10.01              124679             146.039        -3.09245e+06         9.05375e+07
   10.03              124422             145.741        -3.08595e+06         9.03449e+07
   10.05              124165             145.443        -3.07945e+06         9.01523e+07
   10.07              123908             145.146        -3.07295e+06           8.996e+07
   10.09              123651             144.848        -3.06646e+06         8.97678e+07
   10.11              123395             144.551        -3.05998e+06         8.95758e+07
   10.13              123139             144.254         -3.0535e+06         8.93839e+07
   10.15              122883             143.958        -3.04703e+06         8.91923e+07
   10.17              122627             143.662        -3.04056e+06         8.90008e+07
   10.19              122371             143.366         -3.0341e+06         8.88095e+07
   10.21              122116              143.07        -3.02764e+06         8.86183e+07
   10.23              121861             142.775        -3.02119e+06         8.84274e+07
   10.25              121606             142.479        -3.01475e+06         8.82366e+07
   10.27              121351             142.185        -3.00831e+06          8.8046e+07
   10.29              121097              141.89        -3.00188e+06         8.78556e+07
   10.31              120842             141.596        -2.99545e+06         8.76654e+07
   10.33              120588             141.302        -2.98903e+06         8.74754e+07
   10.35              120334             141.008        -2.98262e+06         8.72856e+07
   10.37              120081             140.715        -2.97621e+06          8.7096e+07
   10.39              119828             140.422        -2.96981e+06         8.69066e+07
   10.41              119575             140.129        -2.96342e+06         8.67173e+07
   10.43              119322             139.837        -2.95703e+06         8.65283e+07
   10.45              119069             139.545        -2.95065e+06         8.63395e+07
   10.47              118817             139.253        -2.94428e+06         8.61509e+07
   10.49              118565             138.962        -2.93791e+06         8.59625e+07
   10.51              118313             138.671        -2.93155e+06         8.57743e+07
   10.53              118061              138.38        -2.92519e+06         8.55863e+07
   10.55              117810              138.09        -2.91884e+06         8.53985e+07
   10.57              117559             137.799         -2.9125e+06         8.52109e+07
   10.59              117308              137.51        -2.90617e+06         8.50235e+07
   10.61              117057              137.22        -2.89984e+06         8.48364e+07
   10.63              116807             136.931        -2.89352e+06         8.46495e+07
   10.65              116557             136.642        -2.88721e+06         8.44628e+07
   10.67              116307             136.354         -2.8809e+06         8.42763e+07
   10.69              116058             136.066         -2.8746e+06           8.409e+07
   10.71              115809             135.778        -2.86831e+06          8.3904e+07
   10.73              115560             135.491        -2.86203e+06         8.37182e+07
   10.75              115311             135.204        -2.85575e+06         8.35326e+07
   10.77              115063             134.917        -2.84948e+06         8.33472e+07
   10.79              114815             134.631        -2.84322e+06         8.31621e+07
   10.81              114567             134.345        -2.83696e+06         8.29772e+07
   10.83              114319             134.059        -2.83072e+06         8.27926e+07
   10.85              114072             133.774        -2.82448e+06         8.26081e+07
   10.87              113825             133.489        -2.81825e+06          8.2424e+07
   10.89              113579             133.205        -2.81202e+06           8.224e+07
   10.91              113332             132.921        -2.80581e+06         8.20563e+07
   10.93              113086             132.637         -2.7996e+06         8.18729e+07
   10.95              112840             132.354         -2.7934e+06         8.16896e+07
   10.97              112595             132.071        -2.78721e+06         8.15067e+07
   10.99              112350             131.788        -2.78102e+06         8.13239e+07
   11.01              112105             131.506        -2.77485e+06         8.11414e+07
   11.03              111860             131.224        -2.76868e+06         8.09592e+07
   11.05              111616             130.942        -2.76252e+06         8.07772e+07
   11.07              111372             130.661        -2.75636e+06         8.05955e+07
   11.09              111129             130.381        -2.75022e+06          8.0414e+07
   11.11              110885               130.1        -2.74409e+06         8.02328e+07
   11.13              110642              129.82        -2.73796e+06         8.00519e+07
   11.15              110400             129.541        -2.73184e+06         7.98712e+07
   11.17              110157             129.262        -2.72573e+06         7.96907e+07
   11.19              109915             128.983        -2.71963e+06         7.95105e+07
   11.21              109673             128.705        -2.71353e+06         7.93306e+07
   11.23              109432             128.427        -2.70745e+06          7.9151e+07
   11.25              109191             128.149        -2.70137e+06         7.89716e+07
   11.27              108950             127.872         -2.6953e+06         7.87925e+07
   11.29              108710             127.595        -2.68925e+06         7.86136e+07
   11.31              108470             127.319         -2.6832e+06          7.8435e+07
   11.33              108230             127.043        -2.67715e+06         7.82567e+07
   11.35              107990             126.768        -2.67112e+06         7.80787e+07
   11.37              107751             126.493         -2.6651e+06         7.79009e+07
   11.39              107513             126.218        -2.65908e+06         7.77234e+07
   11.41              107274             125.944        -2.65308e+06         7.75462e+07
   11.43              107036              125.67        -2.64708e+06         7.73693e+07
   11.45              106798             125.396        -2.64109e+06         7.71926e+07
   11.47              106561             125.123        -2.63511e+06         7.70163e+07
   11.49              106324             124.851        -2.62915e+06         7.68402e+07
   11.51              106087             124.579        -2.62319e+06         7.66644e+07
   11.53              105851             124.307        -2.61723e+06         7.64889e+07
   11.55              105615             124.036        -2.61129e+06         7.63136e+07
   11.57              105379             123.765        -2.60536e+06         7.61387e+07
   11.59              105144             123.495        -2.59944e+06          7.5964e+07
   11.61              104909             123.225        -2.59352e+06         7.57896e+07
   11.63              104674             122.955        -2.58762e+06         7.56156e+07
   11.65              104440             122.686        -2.58173e+06         7.54418e+07
   11.67              104206             122.418        -2.57584e+06         7.52683e+07
   11.69              103973             122.149        -2.56997e+06         7.50951e+07
   11.71              103740             121.882         -2.5641e+06         7.49222e+07
   11.73              103507             121.614        -2.55824e+06         7.47496e+07
   11.75              103274             121.347         -2.5524e+06         7.45773e+07
   11.77              103042             121.081        -2.54656e+06         7.44053e+07
   11.79              102811             120.815        -2.54073e+06         7.42336e+07
   11.81              102579              120.55        -2.53492e+06         7.40621e+07
   11.83              102348             120.284        -2.52911e+06          7.3891e+07
   11.85              102118              120.02        -2.52331e+06         7.37202e+07
   11.87              101888             119.756        -2.51752e+06         7.35498e+07
   11.89              101658             119.492        -2.51175e+06         7.33796e+07
   11.91              101428             119.229        -2.50598e+06         7.32097e+07
   11.93              101199             118.966        -2.50022e+06         7.30401e+07
   11.95              100971             118.704        -2.49447e+06         7.28709e+07
   11.97              100742             118.442        -2.48874e+06         7.27019e+07
   11.99              100514             118.181        -2.48301e+06         7.25333e+07
   12.01              100287              117.92        -2.47729e+06          7.2365e+07
   12.03              100060             117.659        -2.47158e+06         7.21969e+07
   12.05               99833             117.399        -2.46589e+06         7.20293e+07
   12.07             99606.6              117.14         -2.4602e+06         7.18619e+07
   12.09             99380.6             116.881        -2.45453e+06         7.16948e+07
   12.11               99155             116.622        -2.44886e+06         7.15281e+07
   12.13             98929.8             116.364         -2.4432e+06         7.13617e+07
   12.15               98705             116.106        -2.43756e+06         7.11956e+07
   12.17             98480.6             115.849        -2.43193e+06         7.10298e+07
   12.19             98256.6             115.593         -2.4263e+06         7.08643e+07
   12.21             98032.9             115.336        -2.42069e+06         7.06992e+07
   12.23             97809.7             115.081        -2.41508e+06         7.05344e+07
   12.25             97586.9             114.825        -2.40949e+06         7.03699e+07
   12.27             97364.4             114.571        -2.40391e+06         7.02057e+07
   12.29             97142.4             114.316        -2.39834e+06         7.00419e+07
   12.31             96920.8             114.063        -2.39278e+06         6.98784e+07
   12.33             96699.5             113.809        -2.38723e+06         6.97152e+07
   12.35             96478.7             113.557        -2.38169e+06         6.95524e+07
   12.37             96258.3             113.304        -2.37616e+06         6.93899e+07
   12.39             96038.3             113.052        -2.37065e+06         6.92277e+07
   12.41             95818.7             112.801        -2.36514e+06         6.90658e+07
   12.43             95599.5              112.55        -2.35964e+06         6.89043e+07
   12.45             95380.7               112.3        -2.35416e+06         6.87431e+07
   12.47             95162.3              112.05        -2.34869e+06         6.85823e+07
   12.49             94944.3             111.801        -2.34322e+06         6.84218e+07
   12.51             94726.8             111.552        -2.33777e+06         6.82616e+07
   12.53             94509.6             111.304        -2.33233e+06         6.81018e+07
   12.55             94292.9             111.056         -2.3269e+06         6.79423e+07
   12.57             94076.6             110.808        -2.32148e+06         6.77831e+07
   12.59             93860.7             110.561        -2.31607e+06         6.76243e+07
   12.61             93645.2             110.315        -2.31068e+06         6.74659e+07
   12.63             93430.2             110.069        -2.30529e+06         6.73077e+07
   12.65             93215.6             109.824        -2.29992e+06         6.71499e+07
   12.67             93001.3             109.579        -2.29455e+06         6.69925e+07
   12.69             92787.5             109.335         -2.2892e+06         6.68354e+07
   12.71             92574.2             109.091        -2.28386e+06         6.66786e+07
   12.73             92361.2             108.847        -2.27853e+06         6.65222e+07
   12.75             92148.7             108.605        -2.27321e+06         6.63662e+07
   12.77             91936.6             108.362        -2.26791e+06         6.62105e+07
   12.79             91724.9              108.12        -2.26261e+06         6.60551e+07
   12.81             91513.7             107.879        -2.25733e+06         6.59001e+07
   12.83             91302.9             107.638        -2.25205e+06         6.57454e+07
   12.85             91092.5             107.398        -2.24679e+06         6.55911e+07
   12.87             90882.5             107.158        -2.24154e+06         6.54371e+07
   12.89               90673             106.919         -2.2363e+06         6.52835e+07
   12.91             90463.9              106.68        -2.23108e+06         6.51302e+07
   12.93             90255.2             106.442        -2.22586e+06         6.49773e+07
   12.95               90047             106.204        -2.22066e+06         6.48248e+07
   12.97             89839.2             105.967        -2.21546e+06         6.46726e+07
   12.99             89631.8              105.73        -2.21028e+06         6.45207e+07
   13.01             89424.9             105.494        -2.20511e+06         6.43692e+07
   13.03             89218.4             105.259        -2.19995e+06         6.42181e+07
   13.05             89012.3             105.024        -2.19481e+06         6.40673e+07
   13.07             88806.7             104.789        -2.18967e+06         6.39169e+07
   13.09             88601.5             104.555        -2.18455e+06         6.37668e+07
   13.11             88396.8             104.321        -2.17944e+06         6.36171e+07
   13.13             88192.4             104.088        -2.17434e+06         6.34677e+07
   13.15             87988.6             103.856        -2.16925e+06         6.33188e+07
   13.17             87785.1             103.624        -2.16417e+06         6.31701e+07
   13.19             87582.1             103.392        -2.15911e+06         6.30219e+07
   13.21             87379.6             103.161        -2.15406e+06          6.2874e+07
   13.23             87177.5             102.931        -2.14902e+06         6.27264e+07
   13.25             86975.8             102.701        -2.14399e+06         6.25792e+07
   13.27             86774.6             102.471        -2.13897e+06         6.24324e+07
   13.29             86573.8             102.243        -2.13396e+06         6.22859e+07
   13.31             86373.5             102.014        -2.12897e+06         6.21398e+07
   13.33             86173.6             101.786        -2.12399e+06         6.19941e+07
   13.35             85974.2             101.559        -2.11902e+06         6.18487e+07
   13.37             85775.2             101.332        -2.11406e+06         6.17037e+07
   13.39             85576.6             101.106        -2.10911e+06         6.15591e+07
   13.41             85378.5             100.881        -2.10418e+06         6.14148e+07
   13.43             85180.9             100.655        -2.09926e+06         6.12709e+07
   13.45             84983.7             100.431        -2.09435e+06         6.11274e+07
   13.47             84786.9             100.207        -2.08945e+06         6.09842e+07
   13.49             84590.6              99.983        -2.08456e+06         6.08414e+07
   13.51             84394.7               99.76        -2.07969e+06          6.0699e+07
   13.53             84199.3             99.5375        -2.07483e+06         6.05569e+07
   13.55             84004.4             99.3155        -2.06997e+06         6.04152e+07
   13.57             83809.8              99.094        -2.06514e+06         6.02739e+07
   13.59             83615.8             98.8731        -2.06031e+06         6.01329e+07
   13.61             83422.2             98.6527         -2.0555e+06         5.99923e+07
   13.63               83229             98.4329        -2.05069e+06         5.98521e+07
   13.65             83036.3             98.2135         -2.0459e+06         5.97123e+07
   13.67             82844.1             97.9948        -2.04112e+06         5.95728e+07
   13.69             82652.3             97.7765        -2.03636e+06         5.94337e+07
   13.71             82460.9             97.5588         -2.0316e+06         5.92949e+07
   13.73               82270             97.3416        -2.02686e+06         5.91566e+07
   13.75             82079.6             97.1249        -2.02213e+06         5.90186e+07
   13.77             81889.6             96.9088        -2.01741e+06          5.8881e+07
   13.79             81700.1             96.6932        -2.01271e+06         5.87437e+07
   13.81               81511             96.4782        -2.00802e+06         5.86068e+07
   13.83             81322.4             96.2637        -2.00333e+06         5.84703e+07
   13.85             81134.3             96.0497        -1.99866e+06         5.83342e+07
   13.87             80946.6             95.8362        -1.99401e+06         5.81985e+07
   13.89             80759.3             95.6233        -1.98936e+06         5.80631e+07
   13.91             80572.5              95.411        -1.98473e+06         5.79281e+07
   13.93             80386.2             95.1991        -1.98011e+06         5.77934e+07
   13.95             80200.3             94.9878         -1.9755e+06         5.76592e+07
   13.97             80014.9             94.7771        -1.97091e+06         5.75253e+07
   13.99             79829.9             94.5668        -1.96632e+06         5.73918e+07
   14.01             79645.4             94.3571        -1.96175e+06         5.72586e+07
   14.03             79461.4              94.148        -1.95719e+06         5.71259e+07
   14.05             79277.8             93.9393        -1.95264e+06         5.69935e+07
   14.07             79094.6             93.7313        -1.94811e+06         5.68615e+07
   14.09             78911.9             93.5237        -1.94359e+06         5.67298e+07
   14.11             78729.7             93.3167        -1.93907e+06         5.65986e+07
   14.13               78548             93.1102        -1.93458e+06         5.64677e+07
   14.15             78366.7             92.9043        -1.93009e+06         5.63372e+07
   14.17             78185.8             92.6989        -1.92562e+06         5.62071e+07
   14.19             78005.4              92.494        -1.92116e+06         5.60773e+07
   14.21             77825.5             92.2897        -1.91671e+06         5.59479e+07
   14.23               77646             92.0859        -1.91227e+06         5.58189e+07
   14.25               77467             91.8826        -1.90784e+06         5.56903e+07
   14.27             77288.5             91.6799        -1.90343e+06         5.55621e+07
   14.29             77110.4             91.4777        -1.89903e+06         5.54342e+07
   14.31             76932.8             91.2761        -1.89464e+06         5.53067e+07
   14.33             76755.6              91.075        -1.89027e+06         5.51796e+07
   14.35             76578.9             90.8744         -1.8859e+06         5.50528e+07
   14.37             76402.6             90.6743        -1.88155e+06         5.49264e+07
   14.39             76226.8             90.4748        -1.87721e+06         5.48005e+07
   14.41             76051.5             90.2759        -1.87289e+06         5.46748e+07
   14.43             75876.6             90.0774        -1.86857e+06         5.45496e+07
   14.45             75702.2             89.8795        -1.86427e+06         5.44247e+07
   14.47             75528.2             89.6821        -1.85998e+06         5.43003e+07
   14.49             75354.7             89.4853         -1.8557e+06         5.41762e+07
   14.51             75181.7              89.289        -1.85144e+06         5.40524e+07
   14.53             75009.1             89.0932        -1.84718e+06         5.39291e+07
   14.55               74837              88.898        -1.84294e+06         5.38061e+07
   14.57             74665.3             88.7033        -1.83872e+06         5.36835e+07
   14.59             74494.1             88.5092         -1.8345e+06         5.35613e+07
   14.61             74323.4             88.3155         -1.8303e+06         5.34394e+07
   14.63             74153.1             88.1224         -1.8261e+06         5.33179e+07
   14.65             73983.2             87.9299        -1.82192e+06         5.31968e+07
   14.67             73813.9             87.7378        -1.81776e+06         5.30761e+07
   14.69             73644.9             87.5463         -1.8136e+06         5.29558e+07
   14.71             73476.5             87.3554        -1.80946e+06         5.28358e+07
   14.73             73308.5             87.1649        -1.80533e+06         5.27162e+07
   14.75             73140.9              86.975        -1.80121e+06          5.2597e+07
   14.77             72973.8             86.7857         -1.7971e+06         5.24782e+07
   14.79             72807.2             86.5968        -1.79301e+06         5.23597e+07
   14.81               72641             86.4085        -1.78893e+06         5.22416e+07
   14.83             72475.3             86.2207        -1.78486e+06         5.21239e+07
   14.85             72310.1             86.0335         -1.7808e+06         5.20066e+07
   14.87             72145.3             85.8467        -1.77676e+06         5.18896e+07
   14.89             71980.9             85.6605        -1.77272e+06          5.1773e+07
   14.91               71817             85.4749         -1.7687e+06         5.16568e+07
   14.93             71653.6             85.2897         -1.7647e+06         5.15409e+07
   14.95             71490.6             85.1051         -1.7607e+06         5.14255e+07
   14.97             71328.1              84.921        -1.75672e+06         5.13104e+07
   14.99               71166             84.7375        -1.75274e+06         5.11956e+07
   15.01             71004.4             84.5544        -1.74878e+06         5.10813e+07
   15.03             70843.2             84.3719        -1.74484e+06         5.09673e+07
   15.05             70682.5             84.1899         -1.7409e+06         5.08537e+07
   15.07             70522.2             84.0085        -1.73698e+06         5.07405e+07
   15.09             70362.4             83.8275        -1.73307e+06         5.06276e+07
   15.11             70203.1             83.6471        -1.72917e+06         5.05152e+07
   15.13             70044.2             83.4672        -1.72528e+06          5.0403e+07
   15.15             69885.7             83.2879        -1.72141e+06         5.02913e+07
   15.17             69727.7              83.109        -1.71754e+06         5.01799e+07
   15.19             69570.2             82.9307        -1.71369e+06         5.00689e+07
   15.21             69413.1             82.7529        -1.70985e+06         4.99583e+07
   15.23             69256.4             82.5756        -1.70603e+06          4.9848e+07
   15.25             69100.2             82.3988        -1.70221e+06         4.97382e+07
   15.27             68944.5             82.2226        -1.69841e+06         4.96286e+07
   15.29             68789.2             82.0469        -1.69462e+06         4.95195e+07
   15.31             68634.3             81.8717        -1.69084e+06         4.94107e+07
   15.33             68479.9              81.697        -1.68708e+06         4.93023e+07
   15.35               68326             81.5228        -1.68332e+06         4.91943e+07
   15.37             68172.5             81.3491        -1.67958e+06         4.90866e+07
   15.39             68019.4              81.176        -1.67585e+06         4.89793e+07
   15.41             67866.8             81.0034        -1.67213e+06         4.88723e+07
   15.43             67714.7             80.8313        -1.66843e+06         4.87658e+07
   15.45             67562.9             80.6597        -1.66473e+06         4.86596e+07
   15.47             67411.7             80.4886        -1.66105e+06         4.85537e+07
   15.49             67260.8              80.318        -1.65738e+06         4.84483e+07
   15.51             67110.5             80.1479        -1.65372e+06         4.83432e+07
   15.53             66960.5             79.9784        -1.65007e+06         4.82384e+07
   15.55               66811             79.8093        -1.64644e+06          4.8134e+07
   15.57               66662             79.6408        -1.64281e+06           4.803e+07
   15.59             66513.3             79.4728         -1.6392e+06         4.79264e+07
   15.61             66365.2             79.3053         -1.6356e+06         4.78231e+07
   15.63             66217.5             79.1383        -1.63202e+06         4.77202e+07
   15.65             66070.2             78.9717        -1.62844e+06         4.76176e+07
   15.67             65923.3             78.8058        -1.62488e+06         4.75154e+07
   15.69             65776.9             78.6403        -1.62132e+06         4.74136e+07
   15.71             65630.9             78.4753        -1.61778e+06         4.73121e+07
   15.73             65485.4             78.3108        -1.61426e+06          4.7211e+07
   15.75             65340.3             78.1468        -1.61074e+06         4.71102e+07
   15.77             65195.7             77.9833        -1.60723e+06         4.70098e+07
   15.79             65051.4             77.8203        -1.60374e+06         4.69098e+07
   15.81             64907.6             77.6579        -1.60026e+06         4.68101e+07
   15.83             64764.3             77.4959        -1.59679e+06         4.67108e+07
   15.85             64621.4             77.3344        -1.59333e+06         4.66119e+07
   15.87             64478.9             77.1734        -1.58988e+06         4.65133e+07
   15.89             64336.9             77.0129        -1.58645e+06          4.6415e+07
   15.91             64195.2             76.8529        -1.58302e+06         4.63171e+07
   15.93             64054.1             76.6934        -1.57961e+06         4.62196e+07
   15.95             63913.3             76.5344        -1.57621e+06         4.61224e+07
   15.97               63773             76.3759        -1.57282e+06         4.60256e+07
   15.99             63633.1             76.2179        -1.56945e+06         4.59291e+07
   16.01             63493.6             76.0604        -1.56608e+06          4.5833e+07
   16.03             63354.6             75.9033        -1.56273e+06         4.57373e+07
   16.05               63216             75.7468        -1.55938e+06         4.56419e+07
   16.07             63077.8             75.5907        -1.55605e+06         4.55468e+07
   16.09             62940.1             75.4351        -1.55273e+06         4.54521e+07
   16.11             62802.8             75.2801        -1.54942e+06         4.53577e+07
   16.13             62665.9             75.1255        -1.54613e+06         4.52637e+07
   16.15             62529.4             74.9714        -1.54284e+06         4.51701e+07
   16.17             62393.3             74.8177        -1.53957e+06         4.50768e+07
   16.19             62257.7             74.6646         -1.5363e+06         4.49838e+07
   16.21             62122.5             74.5119        -1.53305e+06         4.48912e+07
   16.23             61987.7             74.3597        -1.52981e+06         4.47989e+07
   16.25             61853.4              74.208        -1.52658e+06          4.4707e+07
   16.27             61719.4             74.0568        -1.52337e+06         4.46155e+07
   16.29             61585.9             73.9061        -1.52016e+06         4.45242e+07
   16.31             61452.8             73.7558        -1.51696e+06         4.44334e+07
   16.33             61320.1              73.606        -1.51378e+06         4.43428e+07
   16.35             61187.9             73.4567        -1.51061e+06         4.42526e+07
   16.37               61056             73.3079        -1.50745e+06         4.41628e+07
   16.39             60924.6             73.1595        -1.50429e+06         4.40733e+07
   16.41             60793.5             73.0116        -1.50116e+06         4.39841e+07
   16.43             60662.9             72.8642        -1.49803e+06         4.38953e+07
   16.45             60532.7             72.7172        -1.49491e+06         4.38068e+07
   16.47               60403             72.5707         -1.4918e+06         4.37187e+07
   16.49             60273.6             72.4247        -1.48871e+06         4.36309e+07
   16.51             60144.6             72.2792        -1.48562e+06         4.35434e+07
   16.53             60016.1             72.1341        -1.48255e+06         4.34563e+07
   16.55             59887.9             71.9894        -1.47949e+06         4.33695e+07
   16.57             59760.2             71.8453        -1.47644e+06          4.3283e+07
   16.59             59632.9             71.7016         -1.4734e+06         4.31969e+07
   16.61               59506             71.5584        -1.47037e+06         4.31111e+07
   16.63             59379.4             71.4156        -1.46735e+06         4.30257e+07
   16.65             59253.3             71.2733        -1.46434e+06         4.29405e+07
   16.67             59127.6             71.1314        -1.46135e+06         4.28557e+07
   16.69             59002.3               70.99        -1.45836e+06         4.27713e+07
   16.71             58877.4             70.8491        -1.45538e+06         4.26872e+07
   16.73             58752.9             70.7086        -1.45242e+06         4.26034e+07
   16.75             58628.8             70.5686        -1.44947e+06         4.25199e+07
   16.77             58505.1              70.429        -1.44652e+06         4.24368e+07
   16.79             58381.8             70.2899        -1.44359e+06          4.2354e+07
   16.81             58258.9             70.1512        -1.44067e+06         4.22715e+07
   16.83             58136.4             70.0129        -1.43776e+06         4.21893e+07
   16.85             58014.3             69.8752        -1.43486e+06         4.21075e+07
   16.87             57892.6             69.7378        -1.43197e+06          4.2026e+07
   16.89             57771.3             69.6009        -1.42909e+06         4.19448e+07
   16.91             57650.3             69.4645        -1.42622e+06          4.1864e+07
   16.93             57529.8             69.3285        -1.42336e+06         4.17834e+07
   16.95             57409.6             69.1929        -1.42051e+06         4.17032e+07
   16.97             57289.9             69.0578        -1.41768e+06         4.16233e+07
   16.99             57170.5             68.9231        -1.41485e+06         4.15438e+07
   17.01             57051.5             68.7889        -1.41203e+06         4.14645e+07
   17.03               56933             68.6551        -1.40923e+06         4.13856e+07
   17.05             56814.8             68.5217        -1.40643e+06          4.1307e+07
   17.07             56696.9             68.3888        -1.40365e+06         4.12287e+07
   17.09             56579.5             68.2563        -1.40087e+06         4.11507e+07
   17.11             56462.4             68.1242        -1.39811e+06          4.1073e+07
   17.13             56345.8             67.9926        -1.39535e+06         4.09957e+07
   17.15             56229.5             67.8614        -1.39261e+06         4.09186e+07
   17.17             56113.6             67.7306        -1.38987e+06         4.08419e+07
   17.19             55998.1             67.6003        -1.38715e+06         4.07655e+07
   17.21             55882.9             67.4703        -1.38443e+06         4.06894e+07
   17.23             55768.1             67.3408        -1.38173e+06         4.06136e+07
   17.25             55653.7             67.2118        -1.37904e+06         4.05381e+07
   17.27             55539.7             67.0831        -1.37635e+06          4.0463e+07
   17.29             55426.1             66.9549        -1.37368e+06         4.03881e+07
   17.31             55312.8             66.8271        -1.37102e+06         4.03136e+07
   17.33             55199.9             66.6997        -1.36836e+06         4.02393e+07
   17.35             55087.4             66.5727        -1.36572e+06         4.01654e+07
   17.37             54975.2             66.4461        -1.36309e+06         4.00917e+07
   17.39             54863.4               66.32        -1.36046e+06         4.00184e+07
   17.41               54752             66.1943        -1.35785e+06         3.99454e+07
   17.43               54641             66.0689        -1.35524e+06         3.98726e+07
   17.45             54530.3              65.944        -1.35265e+06         3.98002e+07
   17.47             54419.9             65.8195        -1.35007e+06         3.97281e+07
   17.49               54310             65.6955        -1.34749e+06         3.96562e+07
   17.51             54200.4             65.5718        -1.34493e+06         3.95847e+07
   17.53             54091.2             65.4485        -1.34237e+06         3.95135e+07
   17.55             53982.3             65.3256        -1.33982e+06         3.94425e+07
   17.57             53873.8             65.2032        -1.33729e+06         3.93719e+07
   17.59             53765.6             65.0811        -1.33476e+06         3.93015e+07
   17.61             53657.8             64.9594        -1.33225e+06         3.92315e+07
   17.63             53550.4             64.8382        -1.32974e+06         3.91617e+07
   17.65             53443.3             64.7173        -1.32724e+06         3.90923e+07
   17.67             53336.6             64.5968        -1.32475e+06         3.90231e+07
   17.69             53230.2             64.4767        -1.32227e+06         3.89542e+07
   17.71             53124.2             64.3571         -1.3198e+06         3.88856e+07
   17.73             53018.5             64.2378        -1.31734e+06         3.88173e+07
   17.75             52913.2             64.1189        -1.31489e+06         3.87493e+07
   17.77             52808.2             64.0004        -1.31245e+06         3.86815e+07
   17.79             52703.6             63.8822        -1.31002e+06         3.86141e+07
   17.81             52599.4             63.7645         -1.3076e+06         3.85469e+07
   17.83             52495.4             63.6472        -1.30518e+06           3.848e+07
   17.85             52391.8             63.5302        -1.30278e+06         3.84134e+07
   17.87             52288.6             63.4136        -1.30039e+06         3.83471e+07
   17.89             52185.7             63.2974          -1.298e+06         3.82811e+07
   17.91             52083.2             63.1816        -1.29562e+06         3.82153e+07
   17.93             51980.9             63.0662        -1.29325e+06         3.81498e+07
   17.95             51879.1             62.9511         -1.2909e+06         3.80846e+07
   17.97             51777.5             62.8364        -1.28855e+06         3.80197e+07
   17.99             51676.3             62.7221        -1.28621e+06         3.79551e+07
   18.01             51575.5             62.6082        -1.28387e+06         3.78907e+07
   18.03             51474.9             62.4946        -1.28155e+06         3.78266e+07
   18.05             51374.7             62.3814        -1.27924e+06         3.77628e+07
   18.07             51274.9             62.2686        -1.27693e+06         3.76992e+07
   18.09             51175.3             62.1561        -1.27464e+06         3.76359e+07
   18.11             51076.1             62.0441        -1.27235e+06         3.75729e+07
   18.13             50977.3             61.9323        -1.27007e+06         3.75102e+07
   18.15             50878.7              61.821         -1.2678e+06         3.74477e+07
   18.17             50780.5               61.71        -1.26554e+06         3.73855e+07
   18.19             50682.6             61.5993        -1.26329e+06         3.73236e+07
   18.21             50585.1             61.4891        -1.26105e+06         3.72619e+07
   18.23             50487.8             61.3792        -1.25881e+06         3.72005e+07
   18.25             50390.9             61.2696        -1.25658e+06         3.71393e+07
   18.27             50294.3             61.1604        -1.25437e+06         3.70784e+07
   18.29               50198             61.0515        -1.25216e+06         3.70178e+07
   18.31             50102.1              60.943        -1.24996e+06         3.69575e+07
   18.33             50006.4             60.8349        -1.24776e+06         3.68974e+07
   18.35             49911.1             60.7271        -1.24558e+06         3.68375e+07
   18.37             49816.1             60.6197        -1.24341e+06         3.67779e+07
   18.39             49721.4             60.5126        -1.24124e+06         3.67186e+07
   18.41               49627             60.4058        -1.23908e+06         3.66595e+07
   18.43             49532.9             60.2994        -1.23693e+06         3.66007e+07
   18.45             49439.2             60.1933        -1.23479e+06         3.65421e+07
   18.47             49345.7             60.0876        -1.23265e+06         3.64838e+07
   18.49             49252.6             59.9822        -1.23053e+06         3.64258e+07
   18.51             49159.8             59.8772        -1.22841e+06         3.63679e+07
   18.53             49067.2             59.7725         -1.2263e+06         3.63104e+07
   18.55               48975             59.6681         -1.2242e+06         3.62531e+07
   18.57             48883.1             59.5641        -1.22211e+06          3.6196e+07
   18.59             48791.5             59.4604        -1.22002e+06         3.61392e+07
   18.61             48700.2              59.357        -1.21794e+06         3.60826e+07
   18.63             48609.2              59.254        -1.21587e+06         3.60263e+07
   18.65             48518.5             59.1513        -1.21381e+06         3.59702e+07
   18.67               48428             59.0489        -1.21176e+06         3.59143e+07
   18.69             48337.9             58.9468        -1.20971e+06         3.58587e+07
   18.71             48248.1             58.8451        -1.20768e+06         3.58034e+07
   18.73             48158.6             58.7437        -1.20565e+06         3.57482e+07
   18.75             48069.3             58.6426        -1.20363e+06         3.56934e+07
   18.77             47980.4             58.5419        -1.20161e+06         3.56387e+07
   18.79             47891.8             58.4414         -1.1996e+06         3.55843e+07
   18.81             47803.4             58.3413        -1.19761e+06         3.55301e+07
   18.83             47715.3             58.2415        -1.19561e+06         3.54762e+07
   18.85             47627.5              58.142        -1.19363e+06         3.54225e+07
   18.87               47540             58.0428        -1.19166e+06          3.5369e+07
   18.89             47452.8             57.9439        -1.18969e+06         3.53157e+07
   18.91             47365.9             57.8454        -1.18773e+06         3.52627e+07
   18.93             47279.3             57.7471        -1.18577e+06         3.52099e+07
   18.95             47192.9             57.6492        -1.18383e+06         3.51574e+07
   18.97             47106.8             57.5516        -1.18189e+06          3.5105e+07
   18.99               47021             57.4542        -1.17996e+06         3.50529e+07
   19.01             46935.5             57.3572        -1.17803e+06          3.5001e+07
   19.03             46850.2             57.2605        -1.17612e+06         3.49494e+07
   19.05             46765.3             57.1641        -1.17421e+06          3.4898e+07
   19.07             46680.6              57.068        -1.17231e+06         3.48467e+07
   19.09             46596.1             56.9722        -1.17041e+06         3.47957e+07
   19.11               46512             56.8766        -1.16852e+06          3.4745e+07
   19.13             46428.1             56.7814        -1.16664e+06         3.46944e+07
   19.15             46344.5             56.6865        -1.16477e+06         3.46441e+07
   19.17             46261.1             56.5918         -1.1629e+06          3.4594e+07
   19.19             46178.1             56.4975        -1.16104e+06          3.4544e+07
   19.21             46095.3             56.4034        -1.15919e+06         3.44944e+07
   19.23             46012.7             56.3097        -1.15735e+06         3.44449e+07
   19.25             45930.4             56.2162        -1.15551e+06         3.43956e+07
   19.27             45848.4              56.123        -1.15368e+06         3.43466e+07
   19.29             45766.7             56.0301        -1.15185e+06         3.42977e+07
   19.31             45685.2             55.9375        -1.15004e+06         3.42491e+07
   19.33             45603.9             55.8451        -1.14823e+06         3.42006e+07
   19.35               45523             55.7531        -1.14642e+06         3.41524e+07
   19.37             45442.2             55.6613        -1.14462e+06         3.41044e+07
   19.39             45361.8             55.5698        -1.14283e+06         3.40566e+07
   19.41             45281.6             55.4786        -1.14105e+06          3.4009e+07
   19.43             45201.6             55.3876        -1.13927e+06         3.39616e+07
   19.45             45121.9             55.2969         -1.1375e+06         3.39144e+07
   19.47             45042.4             55.2065        -1.13574e+06         3.38674e+07
   19.49             44963.2             55.1164        -1.13398e+06         3.38206e+07
   19.51             44884.3             55.0265        -1.13223e+06          3.3774e+07
   19.53             44805.6             54.9369        -1.13049e+06         3.37276e+07
   19.55             44727.1             54.8476        -1.12875e+06         3.36814e+07
   19.57             44648.9             54.7585        -1.12702e+06         3.36354e+07
   19.59             44570.9             54.6697        -1.12529e+06         3.35895e+07
   19.61             44493.2             54.5812        -1.12357e+06         3.35439e+07
   19.63             44415.7             54.4929        -1.12186e+06         3.34985e+07
   19.65             44338.4             54.4049        -1.12016e+06         3.34532e+07
   19.67             44261.4             54.3172        -1.11846e+06         3.34082e+07
   19.69             44184.7             54.2297        -1.11676e+06         3.33633e+07
   19.71             44108.1             54.1424        -1.11507e+06         3.33187e+07
   19.73             44031.8             54.0555        -1.11339e+06         3.32742e+07
   19.75             43955.8             53.9687        -1.11172e+06         3.32299e+07
   19.77             43879.9             53.8823        -1.11005e+06         3.31858e+07
   19.79             43804.3              53.796        -1.10839e+06         3.31418e+07
   19.81               43729             53.7101        -1.10673e+06         3.30981e+07
   19.83             43653.8             53.6243        -1.10508e+06         3.30545e+07
   19.85             43578.9             53.5388        -1.10343e+06         3.30111e+07
   19.87             43504.3             53.4536        -1.10179e+06         3.29679e+07
   19.89             43429.8             53.3686        -1.10016e+06         3.29249e+07
   19.91             43355.6             53.2839        -1.09853e+06         3.28821e+07
   19.93             43281.6             53.1994        -1.09691e+06         3.28394e+07
   19.95             43207.8             53.1151         -1.0953e+06         3.27969e+07
   19.97             43134.2             53.0311        -1.09369e+06         3.27546e+07
   19.99             43060.9             52.9473        -1.09208e+06         3.27124e+07
